subject, block_type, block, delay_condition, trial, chosen, unchosen, offer_left_image, offer_right_image, exp_value_chosen, exp_value_unchosen, choice_location, choice_key, exp_value1, exp_value2, exp_value3, exp_value4, RT, reward, coins_per_block, coins_per_task,ITI_duration,rt_deadline,choice_feedback_duration,outcome_duration
12, practice, 1, 1, 1, 3, 4, 4, 3, 0.55, 0.65, right, 2, 0.35, 0.45, 0.55, 0.65, 0.7733125000086147, 0, 0.000000,0.000000,1.000000,6.000000,0.500000,1.000000
12, practice, 1, 1, 2, 1, 2, 1, 2, 0.35, 0.45, left, 1, 0.35, 0.45, 0.55, 0.65, 1.2895435999962501, 1, 1.000000,1.000000,1.000000,6.000000,0.500000,1.000000
12, practice, 1, 1, 3, 4, 1, 4, 1, 0.65, 0.35, left, 1, 0.35, 0.45, 0.55, 0.65, 1.042682800005423, 0, 1.000000,1.000000,1.000000,6.000000,0.500000,1.000000
12, practice, 1, 1, 4, 2, 3, 2, 3, 0.45, 0.55, left, 1, 0.35, 0.45, 0.55, 0.65, 0.9375320000108331, 0, 1.000000,1.000000,1.000000,6.000000,0.500000,1.000000
12, practice, 1, 1, 5, 4, 3, 3, 4, 0.65, 0.55, right, 2, 0.35, 0.45, 0.55, 0.65, 1.283031500002835, 1, 2.000000,2.000000,1.000000,6.000000,0.500000,1.000000
12, test, 1, 1, 1, 2, 4, 2, 4, 0.45, 0.65, left, 1, 0.35, 0.45, 0.55, 0.65, 0.6018429999821819, 1, 1.000000,3.000000,1.000000,6.000000,0.500000,1.000000
12, test, 1, 1, 2, 2, 3, 3, 2, 0.45, 0.55, right, 2, 0.35, 0.45, 0.55, 0.65, 0.6826029999938328, 1, 2.000000,4.000000,1.000000,6.000000,0.500000,1.000000
12, test, 1, 1, 3, 4, 1, 1, 4, 0.65, 0.35, right, 2, 0.35, 0.45, 0.55, 0.65, 0.7814944999990985, 1, 3.000000,5.000000,1.000000,6.000000,0.500000,1.000000
12, test, 1, 1, 4, 1, 3, 1, 3, 0.35, 0.55, left, 1, 0.35, 0.45, 0.55, 0.65, 2.1376998999912757, 0, 3.000000,5.000000,1.000000,6.000000,0.500000,1.000000
12, test, 1, 1, 5, 2, 3, 2, 3, 0.45, 0.55, left, 1, 0.35, 0.45, 0.55, 0.65, 0.9487126000167336, 0, 3.000000,5.000000,1.000000,6.000000,0.500000,1.000000
12, test, 1, 1, 6, 3, 4, 3, 4, 0.55, 0.65, left, 1, 0.35, 0.45, 0.55, 0.65, 1.1113685999880545, 0, 3.000000,5.000000,1.000000,6.000000,0.500000,1.000000
12, test, 1, 1, 7, 2, 3, 3, 2, 0.45, 0.55, right, 2, 0.35, 0.45, 0.55, 0.65, 0.7420785999856889, 0, 3.000000,5.000000,1.000000,6.000000,0.500000,1.000000
12, test, 1, 1, 8, 2, 1, 1, 2, 0.45, 0.35, right, 2, 0.35, 0.45, 0.55, 0.65, 0.8962288999755401, 0, 3.000000,5.000000,1.000000,6.000000,0.500000,1.000000
12, test, 1, 1, 9, 3, 2, 3, 2, 0.55, 0.45, left, 1, 0.35, 0.45, 0.55, 0.65, 1.151952300017001, 1, 4.000000,6.000000,1.000000,6.000000,0.500000,1.000000
12, test, 1, 1, 10, 1, 2, 2, 1, 0.35, 0.45, right, 2, 0.35, 0.45, 0.55, 0.65, 1.2707263999909628, 0, 4.000000,6.000000,1.000000,6.000000,0.500000,1.000000
12, test, 1, 1, 11, 3, 2, 3, 2, 0.55, 0.45, left, 1, 0.35, 0.45, 0.55, 0.65, 1.057326699985424, 0, 4.000000,6.000000,1.000000,6.000000,0.500000,1.000000
12, test, 1, 1, 12, 2, 3, 3, 2, 0.45, 0.55, right, 2, 0.35, 0.45, 0.55, 0.65, 1.2580128999834415, 1, 5.000000,7.000000,1.000000,6.000000,0.500000,1.000000
12, test, 1, 1, 13, 4, 1, 1, 4, 0.65, 0.35, right, 2, 0.35, 0.45, 0.55, 0.65, 2.0168933999957517, 0, 5.000000,7.000000,1.000000,6.000000,0.500000,1.000000
12, test, 1, 1, 14, 1, 3, 1, 3, 0.35, 0.55, left, 1, 0.35, 0.45, 0.55, 0.65, 1.6889120000123512, 0, 5.000000,7.000000,1.000000,6.000000,0.500000,1.000000
12, test, 1, 1, 15, 2, 4, 4, 2, 0.45, 0.65, right, 2, 0.35, 0.45, 0.55, 0.65, 1.0212037999881431, 1, 6.000000,8.000000,1.000000,6.000000,0.500000,1.000000
12, test, 1, 1, 16, 3, 1, 1, 3, 0.55, 0.35, right, 2, 0.35, 0.45, 0.55, 0.65, 2.290141500008758, 1, 7.000000,9.000000,1.000000,6.000000,0.500000,1.000000
12, test, 1, 1, 17, 2, 1, 2, 1, 0.45, 0.35, left, 1, 0.35, 0.45, 0.55, 0.65, 2.241784200014081, 0, 7.000000,9.000000,1.000000,6.000000,0.500000,1.000000
12, test, 1, 1, 18, 4, 1, 1, 4, 0.65, 0.35, right, 2, 0.35, 0.45, 0.55, 0.65, 2.5276880000019446, 1, 8.000000,10.000000,1.000000,6.000000,0.500000,1.000000
12, test, 1, 1, 19, 2, 4, 4, 2, 0.45, 0.65, right, 2, 0.35, 0.45, 0.55, 0.65, 0.7541653999942355, 0, 8.000000,10.000000,1.000000,6.000000,0.500000,1.000000
12, test, 1, 1, 20, 3, 2, 2, 3, 0.55, 0.45, right, 2, 0.35, 0.45, 0.55, 0.65, 1.5933757000020705, 1, 9.000000,11.000000,1.000000,6.000000,0.500000,1.000000
12, test, 1, 1, 21, 3, 1, 3, 1, 0.55, 0.35, left, 1, 0.35, 0.45, 0.55, 0.65, 1.8304617000103462, 0, 9.000000,11.000000,1.000000,6.000000,0.500000,1.000000
12, test, 1, 1, 22, 1, 3, 3, 1, 0.35, 0.55, right, 2, 0.35, 0.45, 0.55, 0.65, 1.0256736000010278, 1, 10.000000,12.000000,1.000000,6.000000,0.500000,1.000000
12, test, 1, 1, 23, 2, 4, 4, 2, 0.45, 0.65, right, 2, 0.35, 0.45, 0.55, 0.65, 1.8248014000128023, 0, 10.000000,12.000000,1.000000,6.000000,0.500000,1.000000
12, test, 1, 1, 24, 4, 1, 1, 4, 0.65, 0.35, right, 2, 0.35, 0.45, 0.55, 0.65, 0.8998426999896765, 1, 11.000000,13.000000,1.000000,6.000000,0.500000,1.000000
12, test, 1, 1, 25, 1, 3, 1, 3, 0.35, 0.55, left, 1, 0.35, 0.45, 0.55, 0.65, 2.90850620000856, 0, 11.000000,13.000000,1.000000,6.000000,0.500000,1.000000
12, test, 2, 7, 1, 3, 4, 3, 4, 0.55, 0.65, left, 1, 0.35, 0.45, 0.55, 0.65, 1.255266299995128, 0, 0.000000,13.000000,1.000000,6.000000,0.500000,1.000000
12, test, 2, 7, 2, 1, 2, 2, 1, 0.35, 0.45, right, 2, 0.35, 0.45, 0.55, 0.65, 1.8687160999979824, 0, 0.000000,13.000000,1.000000,6.000000,0.500000,1.000000
12, test, 2, 7, 3, 2, 4, 2, 4, 0.45, 0.65, left, 1, 0.35, 0.45, 0.55, 0.65, 1.5845845000003465, 0, 0.000000,13.000000,1.000000,6.000000,0.500000,1.000000
12, test, 2, 7, 4, 3, 4, 3, 4, 0.55, 0.65, left, 1, 0.35, 0.45, 0.55, 0.65, 1.4613106999895535, 1, 1.000000,14.000000,1.000000,6.000000,0.500000,1.000000
12, test, 2, 7, 5, 2, 1, 2, 1, 0.45, 0.35, left, 1, 0.35, 0.45, 0.55, 0.65, 2.158853300003102, 1, 2.000000,15.000000,1.000000,6.000000,0.500000,1.000000
12, test, 2, 7, 6, 3, 1, 3, 1, 0.55, 0.35, left, 1, 0.35, 0.45, 0.55, 0.65, 1.544537699985085, 1, 3.000000,16.000000,1.000000,6.000000,0.500000,1.000000
12, test, 2, 7, 7, 3, 2, 2, 3, 0.55, 0.45, right, 2, 0.35, 0.45, 0.55, 0.65, 1.731472700019367, 0, 3.000000,16.000000,1.000000,6.000000,0.500000,1.000000
12, test, 2, 7, 8, 3, 4, 4, 3, 0.55, 0.65, right, 2, 0.35, 0.45, 0.55, 0.65, 2.599681199993938, 0, 3.000000,16.000000,1.000000,6.000000,0.500000,1.000000
12, test, 2, 7, 9, 4, 2, 4, 2, 0.65, 0.45, left, 1, 0.35, 0.45, 0.55, 0.65, 1.2165731999848504, 1, 4.000000,17.000000,1.000000,6.000000,0.500000,1.000000
12, test, 2, 7, 10, 2, 1, 2, 1, 0.45, 0.35, left, 1, 0.35, 0.45, 0.55, 0.65, 1.5686290000157896, 0, 4.000000,17.000000,1.000000,6.000000,0.500000,1.000000
12, test, 2, 7, 11, 3, 4, 3, 4, 0.55, 0.65, left, 1, 0.35, 0.45, 0.55, 0.65, 2.9899365000019316, 1, 5.000000,18.000000,1.000000,6.000000,0.500000,1.000000
12, test, 2, 7, 12, 4, 1, 4, 1, 0.65, 0.35, left, 1, 0.35, 0.45, 0.55, 0.65, 1.6887992999982089, 1, 6.000000,19.000000,1.000000,6.000000,0.500000,1.000000
12, test, 2, 7, 13, 1, 2, 1, 2, 0.35, 0.45, left, 1, 0.35, 0.45, 0.55, 0.65, 1.4003610000072513, 0, 6.000000,19.000000,1.000000,6.000000,0.500000,1.000000
12, test, 2, 7, 14, 3, 1, 3, 1, 0.55, 0.35, left, 1, 0.35, 0.45, 0.55, 0.65, 2.0092101999907754, 1, 7.000000,20.000000,1.000000,6.000000,0.500000,1.000000
12, test, 2, 7, 15, 4, 2, 2, 4, 0.65, 0.45, right, 2, 0.35, 0.45, 0.55, 0.65, 3.7372606999997515, 1, 8.000000,21.000000,1.000000,6.000000,0.500000,1.000000
12, test, 2, 7, 16, 2, 1, 1, 2, 0.45, 0.35, right, 2, 0.35, 0.45, 0.55, 0.65, 1.6737827000033576, 1, 9.000000,22.000000,1.000000,6.000000,0.500000,1.000000
12, test, 2, 7, 17, 3, 2, 2, 3, 0.55, 0.45, right, 2, 0.35, 0.45, 0.55, 0.65, 1.2744373999885283, 1, 10.000000,23.000000,1.000000,6.000000,0.500000,1.000000
12, test, 2, 7, 18, 3, 4, 4, 3, 0.55, 0.65, right, 2, 0.35, 0.45, 0.55, 0.65, 1.7780682000156958, 1, 11.000000,24.000000,1.000000,6.000000,0.500000,1.000000
12, test, 2, 7, 19, 1, 4, 1, 4, 0.35, 0.65, left, 1, 0.35, 0.45, 0.55, 0.65, 1.9121136000030674, 0, 11.000000,24.000000,1.000000,6.000000,0.500000,1.000000
12, test, 2, 7, 20, 3, 1, 1, 3, 0.55, 0.35, right, 2, 0.35, 0.45, 0.55, 0.65, 1.63998239999637, 1, 12.000000,25.000000,1.000000,6.000000,0.500000,1.000000
12, test, 2, 7, 21, 3, 4, 4, 3, 0.55, 0.65, right, 2, 0.35, 0.45, 0.55, 0.65, 1.058360499999253, 1, 13.000000,26.000000,1.000000,6.000000,0.500000,1.000000
12, test, 2, 7, 22, 2, 1, 1, 2, 0.45, 0.35, right, 2, 0.35, 0.45, 0.55, 0.65, 5.305573899997398, 1, 14.000000,27.000000,1.000000,6.000000,0.500000,1.000000
12, test, 2, 7, 23, 3, 1, 3, 1, 0.55, 0.35, left, 1, 0.35, 0.45, 0.55, 0.65, 0.0015290000010281801, 0, 14.000000,27.000000,1.000000,6.000000,0.500000,1.000000
12, test, 2, 7, 24, 2, 4, 2, 4, 0.45, 0.65, left, 1, 0.35, 0.45, 0.55, 0.65, 2.6137030000099912, 0, 14.000000,27.000000,1.000000,6.000000,0.500000,1.000000
12, test, 2, 7, 25, 1, 2, 2, 1, 0.35, 0.45, right, 2, 0.35, 0.45, 0.55, 0.65, 2.473594700015383, 0, 14.000000,27.000000,1.000000,6.000000,0.500000,1.000000
12, test, 3, 1, 1, 4, 1, 4, 1, 0.65, 0.35, left, 1, 0.35, 0.45, 0.55, 0.65, 1.52652080002008, 1, 1.000000,28.000000,1.000000,6.000000,0.500000,1.000000
12, test, 3, 1, 2, 4, 1, 4, 1, 0.65, 0.35, left, 1, 0.35, 0.45, 0.55, 0.65, 1.3809183000121266, 0, 1.000000,28.000000,1.000000,6.000000,0.500000,1.000000
12, test, 3, 1, 3, 1, 2, 1, 2, 0.35, 0.45, left, 1, 0.35, 0.45, 0.55, 0.65, 5.8145031000021845, 1, 2.000000,29.000000,1.000000,6.000000,0.500000,1.000000
12, test, 3, 1, 4, 1, 2, 2, 1, 0.35, 0.45, right, 2, 0.35, 0.45, 0.55, 0.65, 1.9113233000098262, 0, 2.000000,29.000000,1.000000,6.000000,0.500000,1.000000
12, test, 3, 1, 5
12, test, 3, 1, 6, 3, 2, 3, 2, 0.55, 0.45, left, 1, 0.35, 0.45, 0.55, 0.65, 2.074807900004089, 1, 3.000000,30.000000,1.000000,6.000000,0.500000,1.000000
12, test, 3, 1, 7, 4, 2, 2, 4, 0.65, 0.45, right, 2, 0.35, 0.45, 0.55, 0.65, 1.0205171999987215, 1, 4.000000,31.000000,1.000000,6.000000,0.500000,1.000000
12, test, 3, 1, 8, 3, 2, 3, 2, 0.55, 0.45, left, 1, 0.35, 0.45, 0.55, 0.65, 0.7734865999955218, 1, 5.000000,32.000000,1.000000,6.000000,0.500000,1.000000
12, test, 3, 1, 9, 1, 2, 1, 2, 0.35, 0.45, left, 1, 0.35, 0.45, 0.55, 0.65, 2.078513299988117, 0, 5.000000,32.000000,1.000000,6.000000,0.500000,1.000000
12, test, 3, 1, 10, 4, 2, 2, 4, 0.65, 0.45, right, 2, 0.35, 0.45, 0.55, 0.65, 0.7233935999975074, 0, 5.000000,32.000000,1.000000,6.000000,0.500000,1.000000
12, test, 3, 1, 11, 4, 1, 4, 1, 0.65, 0.35, left, 1, 0.35, 0.45, 0.55, 0.65, 2.3028981999959797, 0, 5.000000,32.000000,1.000000,6.000000,0.500000,1.000000
12, test, 3, 1, 12, 3, 1, 1, 3, 0.55, 0.35, right, 2, 0.35, 0.45, 0.55, 0.65, 1.1554727999900933, 1, 6.000000,33.000000,1.000000,6.000000,0.500000,1.000000
12, test, 3, 1, 13, 3, 2, 3, 2, 0.55, 0.45, left, 1, 0.35, 0.45, 0.55, 0.65, 1.5745465999934822, 1, 7.000000,34.000000,1.000000,6.000000,0.500000,1.000000
12, test, 3, 1, 14, 1, 4, 1, 4, 0.35, 0.65, left, 1, 0.35, 0.45, 0.55, 0.65, 1.25170990001061, 1, 8.000000,35.000000,1.000000,6.000000,0.500000,1.000000
12, test, 3, 1, 15, 1, 4, 1, 4, 0.35, 0.65, left, 1, 0.35, 0.45, 0.55, 0.65, 0.9527745000086725, 0, 8.000000,35.000000,1.000000,6.000000,0.500000,1.000000
12, test, 3, 1, 16, 3, 1, 1, 3, 0.55, 0.35, right, 2, 0.35, 0.45, 0.55, 0.65, 0.9273130999936257, 1, 9.000000,36.000000,1.000000,6.000000,0.500000,1.000000
12, test, 3, 1, 17, 3, 1, 3, 1, 0.55, 0.35, left, 1, 0.35, 0.45, 0.55, 0.65, 0.7481525999901351, 1, 10.000000,37.000000,1.000000,6.000000,0.500000,1.000000
12, test, 3, 1, 18, 3, 4, 4, 3, 0.55, 0.65, right, 2, 0.35, 0.45, 0.55, 0.65, 1.1058033000153955, 0, 10.000000,37.000000,1.000000,6.000000,0.500000,1.000000
12, test, 3, 1, 19, 1, 4, 1, 4, 0.35, 0.65, left, 1, 0.35, 0.45, 0.55, 0.65, 1.6514206000138074, 1, 11.000000,38.000000,1.000000,6.000000,0.500000,1.000000
12, test, 3, 1, 20, 4, 3, 4, 3, 0.65, 0.55, left, 1, 0.35, 0.45, 0.55, 0.65, 1.544664199987892, 1, 12.000000,39.000000,1.000000,6.000000,0.500000,1.000000
12, test, 3, 1, 21, 3, 4, 4, 3, 0.55, 0.65, right, 2, 0.35, 0.45, 0.55, 0.65, 1.20837449998362, 1, 13.000000,40.000000,1.000000,6.000000,0.500000,1.000000
12, test, 3, 1, 22, 1, 4, 1, 4, 0.35, 0.65, left, 1, 0.35, 0.45, 0.55, 0.65, 1.7244195000093896, 0, 13.000000,40.000000,1.000000,6.000000,0.500000,1.000000
12, test, 3, 1, 23, 2, 1, 1, 2, 0.45, 0.35, right, 2, 0.35, 0.45, 0.55, 0.65, 3.1788136000104714, 1, 14.000000,41.000000,1.000000,6.000000,0.500000,1.000000
12, test, 3, 1, 24, 3, 4, 4, 3, 0.55, 0.65, right, 2, 0.35, 0.45, 0.55, 0.65, 1.764839999988908, 1, 15.000000,42.000000,1.000000,6.000000,0.500000,1.000000
12, test, 3, 1, 25, 2, 4, 4, 2, 0.45, 0.65, right, 2, 0.35, 0.45, 0.55, 0.65, 1.5074078000034206, 1, 16.000000,43.000000,1.000000,6.000000,0.500000,1.000000
12, test, 4, 7, 1, 2, 1, 2, 1, 0.45, 0.35, left, 1, 0.35, 0.45, 0.55, 0.65, 1.1908957999839913, 0, 0.000000,43.000000,1.000000,6.000000,0.500000,1.000000
12, test, 4, 7, 2, 3, 1, 3, 1, 0.55, 0.35, left, 1, 0.35, 0.45, 0.55, 0.65, 0.846516400022665, 1, 1.000000,44.000000,1.000000,6.000000,0.500000,1.000000
12, test, 4, 7, 3, 1, 2, 1, 2, 0.35, 0.45, left, 1, 0.35, 0.45, 0.55, 0.65, 3.5058650000137277, 0, 1.000000,44.000000,1.000000,6.000000,0.500000,1.000000
12, test, 4, 7, 4, 3, 1, 3, 1, 0.55, 0.35, left, 1, 0.35, 0.45, 0.55, 0.65, 1.07774789998075, 1, 2.000000,45.000000,1.000000,6.000000,0.500000,1.000000
12, test, 4, 7, 5, 2, 4, 2, 4, 0.45, 0.65, left, 1, 0.35, 0.45, 0.55, 0.65, 0.8944590000028256, 1, 3.000000,46.000000,1.000000,6.000000,0.500000,1.000000
12, test, 4, 7, 6, 2, 1, 2, 1, 0.45, 0.35, left, 1, 0.35, 0.45, 0.55, 0.65, 1.2878856000024825, 0, 3.000000,46.000000,1.000000,6.000000,0.500000,1.000000
12, test, 4, 7, 7, 1, 4, 4, 1, 0.35, 0.65, right, 2, 0.35, 0.45, 0.55, 0.65, 2.2377436000097077, 0, 3.000000,46.000000,1.000000,6.000000,0.500000,1.000000
12, test, 4, 7, 8, 3, 1, 3, 1, 0.55, 0.35, left, 1, 0.35, 0.45, 0.55, 0.65, 0.8292774000146892, 1, 4.000000,47.000000,1.000000,6.000000,0.500000,1.000000
12, test, 4, 7, 9, 2, 1, 1, 2, 0.45, 0.35, right, 2, 0.35, 0.45, 0.55, 0.65, 1.976871699996991, 0, 4.000000,47.000000,1.000000,6.000000,0.500000,1.000000
12, test, 4, 7, 10, 3, 4, 3, 4, 0.55, 0.65, left, 1, 0.35, 0.45, 0.55, 0.65, 1.142566899972735, 1, 5.000000,48.000000,1.000000,6.000000,0.500000,1.000000
12, test, 4, 7, 11, 1, 3, 1, 3, 0.35, 0.55, left, 1, 0.35, 0.45, 0.55, 0.65, 1.3998062000027858, 1, 6.000000,49.000000,1.000000,6.000000,0.500000,1.000000
12, test, 4, 7, 12, 2, 1, 1, 2, 0.45, 0.35, right, 2, 0.35, 0.45, 0.55, 0.65, 2.897328099992592, 0, 6.000000,49.000000,1.000000,6.000000,0.500000,1.000000
12, test, 4, 7, 13, 3, 2, 3, 2, 0.55, 0.45, left, 1, 0.35, 0.45, 0.55, 0.65, 2.878811799979303, 1, 7.000000,50.000000,1.000000,6.000000,0.500000,1.000000
12, test, 4, 7, 14, 4, 1, 1, 4, 0.65, 0.35, right, 2, 0.35, 0.45, 0.55, 0.65, 3.067440299986629, 0, 7.000000,50.000000,1.000000,6.000000,0.500000,1.000000
12, test, 4, 7, 15, 3, 4, 3, 4, 0.55, 0.65, left, 1, 0.35, 0.45, 0.55, 0.65, 0.845323899993673, 1, 8.000000,51.000000,1.000000,6.000000,0.500000,1.000000
12, test, 4, 7, 16, 2, 4, 2, 4, 0.45, 0.65, left, 1, 0.35, 0.45, 0.55, 0.65, 1.2684512000123505, 0, 8.000000,51.000000,1.000000,6.000000,0.500000,1.000000
12, test, 4, 7, 17, 1, 3, 3, 1, 0.35, 0.55, right, 2, 0.35, 0.45, 0.55, 0.65, 2.1179553999972995, 1, 9.000000,52.000000,1.000000,6.000000,0.500000,1.000000
12, test, 4, 7, 18, 4, 2, 2, 4, 0.65, 0.45, right, 2, 0.35, 0.45, 0.55, 0.65, 1.3640567999973428, 0, 9.000000,52.000000,1.000000,6.000000,0.500000,1.000000
12, test, 4, 7, 19, 2, 4, 2, 4, 0.45, 0.65, left, 1, 0.35, 0.45, 0.55, 0.65, 1.1779207999934442, 0, 9.000000,52.000000,1.000000,6.000000,0.500000,1.000000
12, test, 4, 7, 20, 3, 4, 3, 4, 0.55, 0.65, left, 1, 0.35, 0.45, 0.55, 0.65, 1.1628790999820922, 1, 10.000000,53.000000,1.000000,6.000000,0.500000,1.000000
12, test, 4, 7, 21, 3, 4, 4, 3, 0.55, 0.65, right, 2, 0.35, 0.45, 0.55, 0.65, 1.8163789999962319, 0, 10.000000,53.000000,1.000000,6.000000,0.500000,1.000000
12, test, 4, 7, 22, 3, 2, 2, 3, 0.55, 0.45, right, 2, 0.35, 0.45, 0.55, 0.65, 1.0380717999942135, 0, 10.000000,53.000000,1.000000,6.000000,0.500000,1.000000
12, test, 4, 7, 23, 4, 2, 4, 2, 0.65, 0.45, left, 1, 0.35, 0.45, 0.55, 0.65, 1.2802166999899782, 1, 11.000000,54.000000,1.000000,6.000000,0.500000,1.000000
12, test, 4, 7, 24, 1, 4, 1, 4, 0.35, 0.65, left, 1, 0.35, 0.45, 0.55, 0.65, 2.5054291000124067, 0, 11.000000,54.000000,1.000000,6.000000,0.500000,1.000000
12, test, 4, 7, 25, 3, 2, 3, 2, 0.55, 0.45, left, 1, 0.35, 0.45, 0.55, 0.65, 1.2506979999889154, 1, 12.000000,55.000000,1.000000,6.000000,0.500000,1.000000
12, test, 5, 1, 1, 3, 2, 3, 2, 0.55, 0.45, left, 1, 0.35, 0.45, 0.55, 0.65, 2.028654599998845, 1, 1.000000,56.000000,1.000000,6.000000,0.500000,1.000000
12, test, 5, 1, 2, 1, 3, 3, 1, 0.35, 0.55, right, 2, 0.35, 0.45, 0.55, 0.65, 1.0046350000193343, 0, 1.000000,56.000000,1.000000,6.000000,0.500000,1.000000
12, test, 5, 1, 3, 3, 1, 1, 3, 0.55, 0.35, right, 2, 0.35, 0.45, 0.55, 0.65, 1.4049573999946006, 0, 1.000000,56.000000,1.000000,6.000000,0.500000,1.000000
12, test, 5, 1, 4, 1, 4, 1, 4, 0.35, 0.65, left, 1, 0.35, 0.45, 0.55, 0.65, 1.558381000009831, 1, 2.000000,57.000000,1.000000,6.000000,0.500000,1.000000
12, test, 5, 1, 5, 4, 2, 2, 4, 0.65, 0.45, right, 2, 0.35, 0.45, 0.55, 0.65, 1.657082799996715, 0, 2.000000,57.000000,1.000000,6.000000,0.500000,1.000000
12, test, 5, 1, 6, 2, 3, 2, 3, 0.45, 0.55, left, 1, 0.35, 0.45, 0.55, 0.65, 1.882149599987315, 0, 2.000000,57.000000,1.000000,6.000000,0.500000,1.000000
12, test, 5, 1, 7, 1, 2, 2, 1, 0.35, 0.45, right, 2, 0.35, 0.45, 0.55, 0.65, 1.2916362999822013, 0, 2.000000,57.000000,1.000000,6.000000,0.500000,1.000000
12, test, 5, 1, 8, 3, 2, 3, 2, 0.55, 0.45, left, 1, 0.35, 0.45, 0.55, 0.65, 1.8173183999897446, 0, 2.000000,57.000000,1.000000,6.000000,0.500000,1.000000
12, test, 5, 1, 9, 2, 1, 2, 1, 0.45, 0.35, left, 1, 0.35, 0.45, 0.55, 0.65, 1.0094924000150058, 1, 3.000000,58.000000,1.000000,6.000000,0.500000,1.000000
12, test, 5, 1, 10, 3, 4, 4, 3, 0.55, 0.65, right, 2, 0.35, 0.45, 0.55, 0.65, 1.7788575000013225, 1, 4.000000,59.000000,1.000000,6.000000,0.500000,1.000000
12, test, 5, 1, 11, 2, 4, 2, 4, 0.45, 0.65, left, 1, 0.35, 0.45, 0.55, 0.65, 0.9054010999971069, 0, 4.000000,59.000000,1.000000,6.000000,0.500000,1.000000
12, test, 5, 1, 12, 2, 4, 4, 2, 0.45, 0.65, right, 2, 0.35, 0.45, 0.55, 0.65, 1.922238600003766, 0, 4.000000,59.000000,1.000000,6.000000,0.500000,1.000000
12, test, 5, 1, 13, 3, 1, 3, 1, 0.55, 0.35, left, 1, 0.35, 0.45, 0.55, 0.65, 3.1686339999723714, 1, 5.000000,60.000000,1.000000,6.000000,0.500000,1.000000
12, test, 5, 1, 14, 2, 3, 3, 2, 0.45, 0.55, right, 2, 0.35, 0.45, 0.55, 0.65, 2.5919732000038493, 0, 5.000000,60.000000,1.000000,6.000000,0.500000,1.000000
12, test, 5, 1, 15, 4, 1, 1, 4, 0.65, 0.35, right, 2, 0.35, 0.45, 0.55, 0.65, 1.1040459999931045, 1, 6.000000,61.000000,1.000000,6.000000,0.500000,1.000000
12, test, 5, 1, 16, 4, 2, 2, 4, 0.65, 0.45, right, 2, 0.35, 0.45, 0.55, 0.65, 1.944453700009035, 1, 7.000000,62.000000,1.000000,6.000000,0.500000,1.000000
12, test, 5, 1, 17, 3, 1, 1, 3, 0.55, 0.35, right, 2, 0.35, 0.45, 0.55, 0.65, 1.235978199983947, 0, 7.000000,62.000000,1.000000,6.000000,0.500000,1.000000
12, test, 5, 1, 18, 4, 3, 3, 4, 0.65, 0.55, right, 2, 0.35, 0.45, 0.55, 0.65, 0.7790724000078626, 1, 8.000000,63.000000,1.000000,6.000000,0.500000,1.000000
12, test, 5, 1, 19, 4, 2, 2, 4, 0.65, 0.45, right, 2, 0.35, 0.45, 0.55, 0.65, 1.4889652999991085, 1, 9.000000,64.000000,1.000000,6.000000,0.500000,1.000000
12, test, 5, 1, 20, 2, 3, 3, 2, 0.45, 0.55, right, 2, 0.35, 0.45, 0.55, 0.65, 1.3042129999957979, 1, 10.000000,65.000000,1.000000,6.000000,0.500000,1.000000
12, test, 5, 1, 21, 2, 1, 1, 2, 0.45, 0.35, right, 2, 0.35, 0.45, 0.55, 0.65, 2.7837849999777973, 0, 10.000000,65.000000,1.000000,6.000000,0.500000,1.000000
12, test, 5, 1, 22, 4, 2, 4, 2, 0.65, 0.45, left, 1, 0.35, 0.45, 0.55, 0.65, 0.7816168999997899, 0, 10.000000,65.000000,1.000000,6.000000,0.500000,1.000000
12, test, 5, 1, 23, 1, 2, 1, 2, 0.35, 0.45, left, 1, 0.35, 0.45, 0.55, 0.65, 2.4657696000067517, 0, 10.000000,65.000000,1.000000,6.000000,0.500000,1.000000
12, test, 5, 1, 24, 4, 2, 4, 2, 0.65, 0.45, left, 1, 0.35, 0.45, 0.55, 0.65, 0.9830460999801289, 1, 11.000000,66.000000,1.000000,6.000000,0.500000,1.000000
12, test, 5, 1, 25, 3, 2, 3, 2, 0.55, 0.45, left, 1, 0.35, 0.45, 0.55, 0.65, 5.9684103000035975, 0, 11.000000,66.000000,1.000000,6.000000,0.500000,1.000000
12, test, 6, 7, 1, 2, 1, 1, 2, 0.45, 0.35, right, 2, 0.35, 0.45, 0.55, 0.65, 1.212662999983877, 0, 0.000000,66.000000,1.000000,6.000000,0.500000,1.000000
12, test, 6, 7, 2, 1, 2, 1, 2, 0.35, 0.45, left, 1, 0.35, 0.45, 0.55, 0.65, 0.7761662999982946, 1, 1.000000,67.000000,1.000000,6.000000,0.500000,1.000000
12, test, 6, 7, 3, 1, 2, 2, 1, 0.35, 0.45, right, 2, 0.35, 0.45, 0.55, 0.65, 1.497868100006599, 1, 2.000000,68.000000,1.000000,6.000000,0.500000,1.000000
12, test, 6, 7, 4, 2, 4, 4, 2, 0.45, 0.65, right, 2, 0.35, 0.45, 0.55, 0.65, 1.622693299985258, 1, 3.000000,69.000000,1.000000,6.000000,0.500000,1.000000
12, test, 6, 7, 5, 3, 2, 2, 3, 0.55, 0.45, right, 2, 0.35, 0.45, 0.55, 0.65, 2.399192699987907, 0, 3.000000,69.000000,1.000000,6.000000,0.500000,1.000000
12, test, 6, 7, 6, 1, 4, 4, 1, 0.35, 0.65, right, 2, 0.35, 0.45, 0.55, 0.65, 1.0308763999782968, 1, 4.000000,70.000000,1.000000,6.000000,0.500000,1.000000
12, test, 6, 7, 7, 2, 4, 4, 2, 0.45, 0.65, right, 2, 0.35, 0.45, 0.55, 0.65, 1.6468795999826398, 0, 4.000000,70.000000,1.000000,6.000000,0.500000,1.000000
12, test, 6, 7, 8, 2, 4, 4, 2, 0.45, 0.65, right, 2, 0.35, 0.45, 0.55, 0.65, 3.438862799986964, 1, 5.000000,71.000000,1.000000,6.000000,0.500000,1.000000
12, test, 6, 7, 9, 1, 3, 3, 1, 0.35, 0.55, right, 2, 0.35, 0.45, 0.55, 0.65, 2.692569300008472, 1, 6.000000,72.000000,1.000000,6.000000,0.500000,1.000000
12, test, 6, 7, 10, 3, 4, 4, 3, 0.55, 0.65, right, 2, 0.35, 0.45, 0.55, 0.65, 3.027001200011, 0, 6.000000,72.000000,1.000000,6.000000,0.500000,1.000000
12, test, 6, 7, 11, 2, 3, 2, 3, 0.45, 0.55, left, 1, 0.35, 0.45, 0.55, 0.65, 0.833818799990695, 0, 6.000000,72.000000,1.000000,6.000000,0.500000,1.000000
12, test, 6, 7, 12, 2, 3, 2, 3, 0.45, 0.55, left, 1, 0.35, 0.45, 0.55, 0.65, 1.0925522999896202, 1, 7.000000,73.000000,1.000000,6.000000,0.500000,1.000000
12, test, 6, 7, 13, 3, 2, 2, 3, 0.55, 0.45, right, 2, 0.35, 0.45, 0.55, 0.65, 1.4943554000055883, 1, 8.000000,74.000000,1.000000,6.000000,0.500000,1.000000
12, test, 6, 7, 14, 3, 1, 1, 3, 0.55, 0.35, right, 2, 0.35, 0.45, 0.55, 0.65, 3.4908835999958683, 0, 8.000000,74.000000,1.000000,6.000000,0.500000,1.000000
12, test, 6, 7, 15, 1, 2, 1, 2, 0.35, 0.45, left, 1, 0.35, 0.45, 0.55, 0.65, 1.0506203999975696, 1, 9.000000,75.000000,1.000000,6.000000,0.500000,1.000000
12, test, 6, 7, 16, 1, 3, 3, 1, 0.35, 0.55, right, 2, 0.35, 0.45, 0.55, 0.65, 0.8309443000180181, 0, 9.000000,75.000000,1.000000,6.000000,0.500000,1.000000
12, test, 6, 7, 17, 3, 4, 4, 3, 0.55, 0.65, right, 2, 0.35, 0.45, 0.55, 0.65, 1.173945399990771, 1, 10.000000,76.000000,1.000000,6.000000,0.500000,1.000000
12, test, 6, 7, 18, 4, 3, 4, 3, 0.65, 0.55, left, 1, 0.35, 0.45, 0.55, 0.65, 2.7374933999963105, 1, 11.000000,77.000000,1.000000,6.000000,0.500000,1.000000
12, test, 6, 7, 19, 1, 3, 1, 3, 0.35, 0.55, left, 1, 0.35, 0.45, 0.55, 0.65, 3.2689034000213724, 1, 12.000000,78.000000,1.000000,6.000000,0.500000,1.000000
12, test, 6, 7, 20, 3, 4, 4, 3, 0.55, 0.65, right, 2, 0.35, 0.45, 0.55, 0.65, 4.576631300005829, 0, 12.000000,78.000000,1.000000,6.000000,0.500000,1.000000
12, test, 6, 7, 21, 3, 1, 1, 3, 0.55, 0.35, right, 2, 0.35, 0.45, 0.55, 0.65, 1.6465005000063684, 1, 13.000000,79.000000,1.000000,6.000000,0.500000,1.000000
12, test, 6, 7, 22, 2, 4, 4, 2, 0.45, 0.65, right, 2, 0.35, 0.45, 0.55, 0.65, 5.6002733999921475, 0, 13.000000,79.000000,1.000000,6.000000,0.500000,1.000000
12, test, 6, 7, 23, 2, 3, 3, 2, 0.45, 0.55, right, 2, 0.35, 0.45, 0.55, 0.65, 3.022033299988834, 0, 13.000000,79.000000,1.000000,6.000000,0.500000,1.000000
12, test, 6, 7, 24, 2, 4, 2, 4, 0.45, 0.65, left, 1, 0.35, 0.45, 0.55, 0.65, 5.412773499992909, 0, 13.000000,79.000000,1.000000,6.000000,0.500000,1.000000
12, test, 6, 7, 25, 3, 1, 3, 1, 0.55, 0.35, left, 1, 0.35, 0.45, 0.55, 0.65, 4.312887600011891, 0, 13.000000,79.000000,1.000000,6.000000,0.500000,1.000000
12, test, 7, 1, 1, 4, 2, 4, 2, 0.65, 0.45, left, 1, 0.35, 0.45, 0.55, 0.65, 1.2398187999788206, 0, 0.000000,79.000000,1.000000,6.000000,0.500000,1.000000
12, test, 7, 1, 2, 3, 1, 1, 3, 0.55, 0.35, right, 2, 0.35, 0.45, 0.55, 0.65, 2.4913040999963414, 0, 0.000000,79.000000,1.000000,6.000000,0.500000,1.000000
12, test, 7, 1, 3, 3, 4, 4, 3, 0.55, 0.65, right, 2, 0.35, 0.45, 0.55, 0.65, 0.84014890002436, 0, 0.000000,79.000000,1.000000,6.000000,0.500000,1.000000
12, test, 7, 1, 4, 1, 4, 4, 1, 0.35, 0.65, right, 2, 0.35, 0.45, 0.55, 0.65, 1.243779699987499, 1, 1.000000,80.000000,1.000000,6.000000,0.500000,1.000000
12, test, 7, 1, 5, 2, 3, 2, 3, 0.45, 0.55, left, 1, 0.35, 0.45, 0.55, 0.65, 2.0828668999893125, 0, 1.000000,80.000000,1.000000,6.000000,0.500000,1.000000
12, test, 7, 1, 6, 1, 4, 1, 4, 0.35, 0.65, left, 1, 0.35, 0.45, 0.55, 0.65, 1.692369399999734, 0, 1.000000,80.000000,1.000000,6.000000,0.500000,1.000000
12, test, 7, 1, 7, 1, 3, 3, 1, 0.35, 0.55, right, 2, 0.35, 0.45, 0.55, 0.65, 0.8969728000229225, 1, 2.000000,81.000000,1.000000,6.000000,0.500000,1.000000
12, test, 7, 1, 8, 2, 4, 4, 2, 0.45, 0.65, right, 2, 0.35, 0.45, 0.55, 0.65, 2.4818310999835376, 1, 3.000000,82.000000,1.000000,6.000000,0.500000,1.000000
12, test, 7, 1, 9, 3, 4, 3, 4, 0.55, 0.65, left, 1, 0.35, 0.45, 0.55, 0.65, 2.1059022000117693, 0, 3.000000,82.000000,1.000000,6.000000,0.500000,1.000000
12, test, 7, 1, 10, 1, 2, 2, 1, 0.35, 0.45, right, 2, 0.35, 0.45, 0.55, 0.65, 1.2669410000089556, 0, 3.000000,82.000000,1.000000,6.000000,0.500000,1.000000
12, test, 7, 1, 11, 3, 2, 2, 3, 0.55, 0.45, right, 2, 0.35, 0.45, 0.55, 0.65, 2.3859494000207633, 1, 4.000000,83.000000,1.000000,6.000000,0.500000,1.000000
12, test, 7, 1, 12, 4, 3, 4, 3, 0.65, 0.55, left, 1, 0.35, 0.45, 0.55, 0.65, 2.097806400008267, 1, 5.000000,84.000000,1.000000,6.000000,0.500000,1.000000
12, test, 7, 1, 13, 2, 3, 3, 2, 0.45, 0.55, right, 2, 0.35, 0.45, 0.55, 0.65, 1.8588699999963865, 0, 5.000000,84.000000,1.000000,6.000000,0.500000,1.000000
12, test, 7, 1, 14, 1, 4, 1, 4, 0.35, 0.65, left, 1, 0.35, 0.45, 0.55, 0.65, 0.9645254999923054, 1, 6.000000,85.000000,1.000000,6.000000,0.500000,1.000000
12, test, 7, 1, 15, 1, 4, 4, 1, 0.35, 0.65, right, 2, 0.35, 0.45, 0.55, 0.65, 0.855951500008814, 0, 6.000000,85.000000,1.000000,6.000000,0.500000,1.000000
12, test, 7, 1, 16, 4, 3, 3, 4, 0.65, 0.55, right, 2, 0.35, 0.45, 0.55, 0.65, 3.4176165999961086, 1, 7.000000,86.000000,1.000000,6.000000,0.500000,1.000000
12, test, 7, 1, 17, 4, 1, 4, 1, 0.65, 0.35, left, 1, 0.35, 0.45, 0.55, 0.65, 2.0541438999935053, 1, 8.000000,87.000000,1.000000,6.000000,0.500000,1.000000
12, test, 7, 1, 18, 4, 1, 1, 4, 0.65, 0.35, right, 2, 0.35, 0.45, 0.55, 0.65, 1.3374847999948543, 1, 9.000000,88.000000,1.000000,6.000000,0.500000,1.000000
12, test, 7, 1, 19, 4, 1, 4, 1, 0.65, 0.35, left, 1, 0.35, 0.45, 0.55, 0.65, 0.7758125999826007, 1, 10.000000,89.000000,1.000000,6.000000,0.500000,1.000000
12, test, 7, 1, 20, 2, 1, 1, 2, 0.45, 0.35, right, 2, 0.35, 0.45, 0.55, 0.65, 1.4301966999773867, 1, 11.000000,90.000000,1.000000,6.000000,0.500000,1.000000
12, test, 7, 1, 21, 4, 1, 4, 1, 0.65, 0.35, left, 1, 0.35, 0.45, 0.55, 0.65, 1.921802500000922, 1, 12.000000,91.000000,1.000000,6.000000,0.500000,1.000000
12, test, 7, 1, 22, 2, 3, 2, 3, 0.45, 0.55, left, 1, 0.35, 0.45, 0.55, 0.65, 2.477755400002934, 0, 12.000000,91.000000,1.000000,6.000000,0.500000,1.000000
12, test, 7, 1, 23, 4, 1, 1, 4, 0.65, 0.35, right, 2, 0.35, 0.45, 0.55, 0.65, 0.9312397000030614, 1, 13.000000,92.000000,1.000000,6.000000,0.500000,1.000000
12, test, 7, 1, 24, 2, 4, 2, 4, 0.45, 0.65, left, 1, 0.35, 0.45, 0.55, 0.65, 2.2131892000033986, 0, 13.000000,92.000000,1.000000,6.000000,0.500000,1.000000
12, test, 7, 1, 25, 3, 4, 4, 3, 0.55, 0.65, right, 2, 0.35, 0.45, 0.55, 0.65, 2.263192299986258, 1, 14.000000,93.000000,1.000000,6.000000,0.500000,1.000000
12, test, 8, 7, 1, 1, 2, 2, 1, 0.35, 0.45, right, 2, 0.35, 0.45, 0.55, 0.65, 2.3158027000026777, 0, 0.000000,93.000000,1.000000,6.000000,0.500000,1.000000
12, test, 8, 7, 2, 2, 1, 1, 2, 0.45, 0.35, right, 2, 0.35, 0.45, 0.55, 0.65, 1.7327087000012398, 1, 1.000000,94.000000,1.000000,6.000000,0.500000,1.000000
12, test, 8, 7, 3, 2, 3, 2, 3, 0.45, 0.55, left, 1, 0.35, 0.45, 0.55, 0.65, 1.539880100026494, 0, 1.000000,94.000000,1.000000,6.000000,0.500000,1.000000
12, test, 8, 7, 4, 3, 2, 3, 2, 0.55, 0.45, left, 1, 0.35, 0.45, 0.55, 0.65, 1.2061844000127167, 1, 2.000000,95.000000,1.000000,6.000000,0.500000,1.000000
12, test, 8, 7, 5, 3, 4, 4, 3, 0.55, 0.65, right, 2, 0.35, 0.45, 0.55, 0.65, 2.1222448000044096, 1, 3.000000,96.000000,1.000000,6.000000,0.500000,1.000000
12, test, 8, 7, 6, 3, 2, 2, 3, 0.55, 0.45, right, 2, 0.35, 0.45, 0.55, 0.65, 1.2786459999915678, 0, 3.000000,96.000000,1.000000,6.000000,0.500000,1.000000
12, test, 8, 7, 7, 3, 1, 1, 3, 0.55, 0.35, right, 2, 0.35, 0.45, 0.55, 0.65, 1.3082315000065137, 1, 4.000000,97.000000,1.000000,6.000000,0.500000,1.000000
12, test, 8, 7, 8, 2, 4, 2, 4, 0.45, 0.65, left, 1, 0.35, 0.45, 0.55, 0.65, 3.775563900009729, 1, 5.000000,98.000000,1.000000,6.000000,0.500000,1.000000
12, test, 8, 7, 9, 3, 4, 4, 3, 0.55, 0.65, right, 2, 0.35, 0.45, 0.55, 0.65, 1.4895261000201572, 0, 5.000000,98.000000,1.000000,6.000000,0.500000,1.000000
12, test, 8, 7, 10, 2, 1, 2, 1, 0.45, 0.35, left, 1, 0.35, 0.45, 0.55, 0.65, 3.9864823000098113, 0, 5.000000,98.000000,1.000000,6.000000,0.500000,1.000000
12, test, 8, 7, 11, 2, 4, 4, 2, 0.45, 0.65, right, 2, 0.35, 0.45, 0.55, 0.65, 2.073058299982222, 0, 5.000000,98.000000,1.000000,6.000000,0.500000,1.000000
12, test, 8, 7, 12, 2, 4, 2, 4, 0.45, 0.65, left, 1, 0.35, 0.45, 0.55, 0.65, 2.2855479000136256, 0, 5.000000,98.000000,1.000000,6.000000,0.500000,1.000000
12, test, 8, 7, 13, 3, 4, 4, 3, 0.55, 0.65, right, 2, 0.35, 0.45, 0.55, 0.65, 1.470941400009906, 1, 6.000000,99.000000,1.000000,6.000000,0.500000,1.000000
12, test, 8, 7, 14, 4, 2, 2, 4, 0.65, 0.45, right, 2, 0.35, 0.45, 0.55, 0.65, 1.821132699988084, 0, 6.000000,99.000000,1.000000,6.000000,0.500000,1.000000
12, test, 8, 7, 15, 2, 1, 1, 2, 0.45, 0.35, right, 2, 0.35, 0.45, 0.55, 0.65, 2.8607295000110753, 0, 6.000000,99.000000,1.000000,6.000000,0.500000,1.000000
12, test, 8, 7, 16, 1, 2, 2, 1, 0.35, 0.45, right, 2, 0.35, 0.45, 0.55, 0.65, 1.5827291999885347, 1, 7.000000,100.000000,1.000000,6.000000,0.500000,1.000000
12, test, 8, 7, 17, 1, 2, 2, 1, 0.35, 0.45, right, 2, 0.35, 0.45, 0.55, 0.65, 1.3361848999920767, 0, 7.000000,100.000000,1.000000,6.000000,0.500000,1.000000
12, test, 8, 7, 18, 4, 3, 3, 4, 0.65, 0.55, right, 2, 0.35, 0.45, 0.55, 0.65, 2.4032776999811176, 1, 8.000000,101.000000,1.000000,6.000000,0.500000,1.000000
12, test, 8, 7, 19, 3, 4, 4, 3, 0.55, 0.65, right, 2, 0.35, 0.45, 0.55, 0.65, 4.457901500019943, 1, 9.000000,102.000000,1.000000,6.000000,0.500000,1.000000
12, test, 8, 7, 20, 1, 4, 1, 4, 0.35, 0.65, left, 1, 0.35, 0.45, 0.55, 0.65, 5.613881700002821, 0, 9.000000,102.000000,1.000000,6.000000,0.500000,1.000000
12, test, 8, 7, 21, 4, 3, 3, 4, 0.65, 0.55, right, 2, 0.35, 0.45, 0.55, 0.65, 1.77644029998919, 1, 10.000000,103.000000,1.000000,6.000000,0.500000,1.000000
12, test, 8, 7, 22, 2, 4, 4, 2, 0.45, 0.65, right, 2, 0.35, 0.45, 0.55, 0.65, 2.1856426000013016, 0, 10.000000,103.000000,1.000000,6.000000,0.500000,1.000000
12, test, 8, 7, 23, 4, 2, 2, 4, 0.65, 0.45, right, 2, 0.35, 0.45, 0.55, 0.65, 1.6179920999857131, 1, 11.000000,104.000000,1.000000,6.000000,0.500000,1.000000
12, test, 8, 7, 24, 1, 3, 1, 3, 0.35, 0.55, left, 1, 0.35, 0.45, 0.55, 0.65, 1.5333513999939896, 0, 11.000000,104.000000,1.000000,6.000000,0.500000,1.000000
12, test, 8, 7, 25, 1, 3, 1, 3, 0.35, 0.55, left, 1, 0.35, 0.45, 0.55, 0.65, 1.7611963000090327, 0, 11.000000,104.000000,1.000000,6.000000,0.500000,1.000000
